Folder: PhotonsAndNucleonsLab/xrayspectroscopy/data

Note: README.md
# PhotonsAndNucleonsLab
Lab reports from a photon and nucleons lab I made while at Ohio University.
The lab adviser was Dr. Paul King of Ohio University.
The majority of the experiments were performed at the Edwards Accelerator at Ohio University in Athens, OH.
Each lab has three associated files: the final report in PDF format, the LaTeX file to make the PDF file (the .tex files lack major documentation. Nevertheless they are mostly straight forward and easy to understand.), and the corresponding bibliography file.
Each lab had specific objectives outlined in the file "lab_objectives.pdf"

File: .txt
#FORMAT      : EMSA/MAS Spectral Data File
#VERSION     : 1.0
#TITLE       : Dime Location 1(1)
#DATE        : 15-MAR-2017
#TIME        : 15:16:20
#OWNER       :
#NPOINTS     : 2560.0
#NCOLUMNS    : 1.0
#XUNITS      : keV
#YUNITS      : Intensity
#DATATYPE    : XY
#XPERCHAN    : 0.0100
#OFFSET      : 0.0000
#CHOFFSET    :   0.0
#SIGNALTYPE  : EDS
#XLABEL      : X-Ray Energy
#YLABEL      : X-Ray Intensity
#BEAMKV   -kV:  25.0
#EMISSION -uA: 0.0000
#PROBECUR -nA: 1.2e+06
#BEAMDIAM -nm:   0.0
#MAGCAM      : 60000.0
#OPERMODE    : IMAG
#XTILTSTGE-dg: 0.000
#YTILTSTGE-dg: 0.000
#XPOSITION   : 0.000
#YPOSITION   : 20.100
#ZPOSITION   : 0.000
#ELEVANGLE-dg: 90.00
#AZIMANGLE-dg: 90.00
#SOLIDANGL-sR: 0.0222
#LIVETIME  -s: 100.0
#REALTIME  -s: 109.4
#THCWIND     : 3.00E-05
#TAUWIND  -cm: 2.00E-06
#TDEADLYR -cm: 1.00E-05
#EDSDET      : SIUTW
#COMMENT     : The following parameters are defined by Thermo Electron
##INSTRUMENT : NORAN System Six
##DETNAME    : Pioneer
##CONTAM     : 0.00E+00
##WORKDIST   :  5.00
##STAGEROT   : 0.000
##SLIDEPOS   : 0.000
##CRYSTMATL  : SiLi
##CRYSTAREA  : 10.000
##CRYSTTHICK : 3.000
##CONTMATL   : GOLD
##WINDCOAT   : ALUM
##WINDTHICK  : 0.030
##DEADTIME   : 9.381
##TIMECNSTNT :  16
##ZEROWIDTH  : 202.000
##ESCPKSREM  : 0
##ZEROPKSREM : 0
##SUMPKSREM  : 0
##ZEROCUTOFF : 0.000
##DETSUBTYPE : 2
##EXPONENT   : 0.000
##LOWEVADJ   : 0.000
##BEAMX      : -1.000
##BEAMY      : -1.000
##CHARGE     : 0.00E+00
##QUANT_DATE : Wed Mar 15 15:18:54 2017
##QUANT_CHI  : 295.902
##WDS_ANGLE  : -1.000
##FITTYPE    : 1
##MATRIXCORR : 1
##PEAKLAB    : 0.225000  C Ka  2
##PEAKLAB    : 0.928000  Cu La1  2
##PEAKLAB    : 7.458000  Ni Ka1  2
##PEAKLAB    : 8.013000  Cu Ka  2
##PEAKLAB    : 8.874000  Cu Kb1  2
##PEAKLAB    : 11.922  Br Ka1  2
##PEAKLAB    : 11.876  Br Ka2  2
##PEAKLAB    : 13.288  Br Kb1  2
##PEAKLAB    : 13.467  Br Kb2  2
##PEAKLAB    : 1.480000  Br La1  2
##PEAKLAB    : 1.526000  Br Lb1  2
##PEAKLAB    : 1.293000  Br Ll  2
##PEAKLAB    : 1.596000  Br Lb3  2
##PEAKLAB    : 1.339000  Br Ln  2
##PEAKLAB    : 0.155000  Br M3-N1  2
##PEAKLAB    : 0.161000  Br M2-N1  2
##QUANT_ATNUM: CK 6
##QUANT_LNTP : CK 1
##QUANT_SRC  : CK 1
##QUANT_NTCNT: CK 39
##QUANT_CTERR: CK 10
##QUANT_STD  : CK
##QUANT_CMPD : CK C
##QUANT_KRT  : CK 0.04327
##QUANT_KERR : CK 0.01133
##QUANT_FITC : CK 1.68569e-004
##QUANT_WTCON: CK 0.18403
##QUANT_ATCON: CK 0.53971
##QUANT_COCON: CK 0.18403
##QUANT_Z    : CK 0.79332
##QUANT_A    : CK 6.66120
##QUANT_F    : CK 0.99976
##QUANT_KFACT: CK 0.00000
##QUANT_CATS : CK 0.00000
##QUANT_FITC1: CK 0.00000e+000
##QUANT_FITC2: CK 0.00000e+000
##QUANT_FIT_G: CK 1.19443e-002
##QUANT_PMTR0: CK 8.79671e-001
##QUANT_PMTR1: CK 1.52227e+001
##QUANT_PMTR2: CK 0.00000e+000
##QUANT_PMTR3: CK 1.12072e+001
##QUANT_ATNUM: CuK 29
##QUANT_LNTP : CuK 1
##QUANT_SRC  : CuK 1
##QUANT_NTCNT: CuK 1682
##QUANT_CTERR: CuK 101
##QUANT_STD  : CuK
##QUANT_CMPD : CuK Cu
##QUANT_KRT  : CuK 0.71372
##QUANT_KERR : CuK 0.04292
##QUANT_FITC : CuK 2.25438e-003
##QUANT_WTCON: CuK 0.61508
##QUANT_ATCON: CuK 0.34096
##QUANT_COCON: CuK 0.61508
##QUANT_Z    : CuK 1.07390
##QUANT_A    : CuK 0.99749
##QUANT_F    : CuK 0.99944
##QUANT_KFACT: CuK 0.00000
##QUANT_CATS : CuK 0.00000
##QUANT_FITC1: CuK 7.84455e-004
##QUANT_FITC2: CuK 0.00000e+000
##QUANT_FIT_G: CuK 2.89737e-003
##QUANT_PMTR0: CuK 9.91294e-001
##QUANT_PMTR1: CuK 4.58253e+000
##QUANT_PMTR2: CuK 3.56712e-002
##QUANT_PMTR3: CuK 9.10328e+000
##QUANT_ATNUM: CuL 29
##QUANT_LNTP : CuL 2
##QUANT_SRC  : CuL 1
##QUANT_NTCNT: CuL 728
##QUANT_CTERR: CuL 66
##QUANT_STD  : CuL
##QUANT_CMPD : CuL
##QUANT_KRT  : CuL 0.00000
##QUANT_KERR : CuL 0.00000
##QUANT_FITC : CuL 4.26501e-003
##QUANT_WTCON: CuL -1.00000
##QUANT_ATCON: CuL 0.00000
##QUANT_COCON: CuL 0.00000
##QUANT_Z    : CuL 0.00000
##QUANT_A    : CuL 0.00000
##QUANT_F    : CuL 0.00000
##QUANT_KFACT: CuL 0.00000
##QUANT_CATS : CuL 0.00000
##QUANT_FITC1: CuL 0.00000e+000
##QUANT_FITC2: CuL 0.00000e+000
##QUANT_FIT_G: CuL 2.42892e-004
##QUANT_PMTR0: CuL 8.79671e-001
##QUANT_PMTR1: CuL 1.52227e+001
##QUANT_PMTR2: CuL 0.00000e+000
##QUANT_PMTR3: CuL 1.12072e+001
##QUANT_ATNUM: BrK 35
##QUANT_LNTP : BrK 1
##QUANT_SRC  : BrK 1
##QUANT_NTCNT: BrK 5
##QUANT_CTERR: BrK 16
##QUANT_STD  : BrK
##QUANT_CMPD : BrK Br
##QUANT_KRT  : BrK 0.00786
##QUANT_KERR : BrK 0.00786
##QUANT_FITC : BrK 4.57166e-005
##QUANT_WTCON: BrK 0.00752
##QUANT_ATCON: BrK 0.00332
##QUANT_COCON: BrK 0.00752
##QUANT_Z    : BrK 1.15694
##QUANT_A    : BrK 1.02735
##QUANT_F    : BrK 1.00000
##QUANT_KFACT: BrK 0.00000
##QUANT_CATS : BrK 0.00000
##QUANT_FITC1: BrK 0.00000e+000
##QUANT_FITC2: BrK 0.00000e+000
##QUANT_FIT_G: BrK 0.00000e+000
##QUANT_PMTR0: BrK 9.91294e-001
##QUANT_PMTR1: BrK 4.58253e+000
##QUANT_PMTR2: BrK 3.56712e-002
##QUANT_PMTR3: BrK 9.10328e+000
##QUANT_ATNUM: BrL 35
##QUANT_LNTP : BrL 2
##QUANT_SRC  : BrL 1
##QUANT_NTCNT: BrL 0
##QUANT_CTERR: BrL 7
##QUANT_STD  : BrL
##QUANT_CMPD : BrL
##QUANT_KRT  : BrL 0.00000
##QUANT_KERR : BrL 0.00000
##QUANT_FITC : BrL 0.00000e+000
##QUANT_WTCON: BrL -1.00000
##QUANT_ATCON: BrL 0.00000
##QUANT_COCON: BrL 0.00000
##QUANT_Z    : BrL 0.00000
##QUANT_A    : BrL 0.00000
##QUANT_F    : BrL 0.00000
##QUANT_KFACT: BrL 0.00000
##QUANT_CATS : BrL 0.00000
##QUANT_FITC1: BrL 0.00000e+000
##QUANT_FITC2: BrL 0.00000e+000
##QUANT_FIT_G: BrL 4.59968e-005
##QUANT_PMTR0: BrL 9.91294e-001
##QUANT_PMTR1: BrL 4.58253e+000
##QUANT_PMTR2: BrL 3.56712e-002
##QUANT_PMTR3: BrL 9.10328e+000
##QUANT_ATNUM: BrM 35
##QUANT_LNTP : BrM 3
##QUANT_SRC  : BrM 1
##QUANT_NTCNT: BrM 0
##QUANT_CTERR: BrM 0
##QUANT_STD  : BrM
##QUANT_CMPD : BrM
##QUANT_KRT  : BrM 0.00000
##QUANT_KERR : BrM 0.00000
##QUANT_FITC : BrM 0.00000e+000
##QUANT_WTCON: BrM -1.00000
##QUANT_ATCON: BrM 0.00000
##QUANT_COCON: BrM 0.00000
##QUANT_Z    : BrM 0.00000
##QUANT_A    : BrM 0.00000
##QUANT_F    : BrM 0.00000
##QUANT_KFACT: BrM 0.00000
##QUANT_CATS : BrM 0.00000
##QUANT_FITC1: BrM 0.00000e+000
##QUANT_FITC2: BrM 0.00000e+000
##QUANT_FIT_G: BrM 0.00000e+000
##QUANT_PMTR0: BrM 8.79671e-001
##QUANT_PMTR1: BrM 1.52227e+001
##QUANT_PMTR2: BrM 0.00000e+000
##QUANT_PMTR3: BrM 1.12072e+001
##QUANT_ATNUM: NiK 28
##QUANT_LNTP : NiK 1
##QUANT_SRC  : NiK 1
##QUANT_NTCNT: NiK 613
##QUANT_CTERR: NiK 73
##QUANT_STD  : NiK
##QUANT_CMPD : NiK Ni
##QUANT_KRT  : NiK 0.23515
##QUANT_KERR : NiK 0.02804
##QUANT_FITC : NiK 6.58133e-004
##QUANT_WTCON: NiK 0.19337
##QUANT_ATCON: NiK 0.11602
##QUANT_COCON: NiK 0.19337
##QUANT_Z    : NiK 1.02278
##QUANT_A    : NiK 0.99921
##QUANT_F    : NiK 0.99960
##QUANT_KFACT: NiK 0.00000
##QUANT_CATS : NiK 0.00000
##QUANT_FITC1: NiK 1.65338e-004
##QUANT_FITC2: NiK 0.00000e+000
##QUANT_FIT_G: NiK 1.11546e-003
##QUANT_PMTR0: NiK 9.91294e-001
##QUANT_PMTR1: NiK 4.58253e+000
##QUANT_PMTR2: NiK 3.56712e-002
##QUANT_PMTR3: NiK 9.10328e+000
##QUANT_ATNUM: NiL 28
##QUANT_LNTP : NiL 2
##QUANT_SRC  : NiL 1
##QUANT_NTCNT: NiL 50
##QUANT_CTERR: NiL 84
##QUANT_STD  : NiL
##QUANT_CMPD : NiL
##QUANT_KRT  : NiL 0.00000
##QUANT_KERR : NiL 0.00000
##QUANT_FITC : NiL 4.10030e-004
##QUANT_WTCON: NiL -1.00000
##QUANT_ATCON: NiL 0.00000
##QUANT_COCON: NiL 0.00000
##QUANT_Z    : NiL 0.00000
##QUANT_A    : NiL 0.00000
##QUANT_F    : NiL 0.00000
##QUANT_KFACT: NiL 0.00000
##QUANT_CATS : NiL 0.00000
##QUANT_FITC1: NiL 0.00000e+000
##QUANT_FITC2: NiL 0.00000e+000
##QUANT_FIT_G: NiL 2.02040e-003
##QUANT_PMTR0: NiL 8.79671e-001
##QUANT_PMTR1: NiL 1.52227e+001
##QUANT_PMTR2: NiL 0.00000e+000
##QUANT_PMTR3: NiL 1.12072e+001
#SPECTRUM    :
0.0000     0.0
0.0900     0.0
0.1800     0.0
0.2700   488.0
0.3600    54.0
0.4500    81.0
0.5400    72.0
0.6300    16.0
0.7200    11.0
0.8100    21.0
0.9000    33.0
0.9900    24.0
1.0800    11.0
1.1700     0.0
1.2600     1.0
1.3500     0.0
1.4400     2.0
1.5300     0.0
1.6200     1.0
1.7100     3.0
1.8000     1.0
1.8900     1.0
1.9800     1.0
2.0700     1.0
2.1600     1.0
2.2500     3.0
2.3400     2.0
2.4300     2.0
2.5200     3.0
2.6100     1.0
2.7000     5.0
2.7900     2.0
2.8800     1.0
2.9700     2.0
3.0600     0.0
3.1500     2.0
3.2400     2.0
3.3300     1.0
3.4200     2.0
3.5100     1.0
3.6000     2.0
3.6900     1.0
3.7800     1.0
3.8700     3.0
3.9600     3.0
4.0500     2.0
4.1400     1.0
4.2300     4.0
4.3200     1.0
4.4100     2.0
4.5000     2.0
4.5900     3.0
4.6800     1.0
4.7700     2.0
4.8600     3.0
4.9500     0.0
5.0400     0.0
5.1300     0.0
5.2200     0.0
5.3100     1.0
5.4000     2.0
5.4900     2.0
5.5800     2.0
5.6700     0.0
5.7600     2.0
5.8500     2.0
5.9400     1.0
6.0300     2.0
6.1200     0.0
6.2100     0.0
6.3000     1.0
6.3900     1.0
6.4800     1.0
6.5700     1.0
6.6600     1.0
6.7500     1.0
6.8400     1.0
6.9300     0.0
7.0200     2.0
7.1100     0.0
7.2000     2.0
7.2900     4.0
7.3800    10.0
7.4700    27.0
7.5600    13.0
7.6500     3.0
7.7400     1.0
7.8300    16.0
7.9200    32.0
8.0100    61.0
8.1000    39.0
8.1900    20.0
8.2800     3.0
8.3700     2.0
8.4600     1.0
8.5500     2.0
8.6400     1.0
8.7300     2.0
8.8200     5.0
8.9100     6.0
9.0000     3.0
9.0900     0.0
9.1800     1.0
9.2700     0.0
9.3600     0.0
9.4500     0.0
9.5400     0.0
9.6300     0.0
9.7200     1.0
9.8100     0.0
9.9000     2.0
9.9900     1.0
10.0800     0.0
10.1700     0.0
10.2600     0.0
10.3500     0.0
10.4400     1.0
10.5300     1.0
10.6200     0.0
10.7100     2.0
10.8000     1.0
10.8900     0.0
10.9800     0.0
11.0700     0.0
11.1600     2.0
11.2500     0.0
11.3400     0.0
11.4300     2.0
11.5200     0.0
11.6100     1.0
11.7000     1.0
11.7900     0.0
11.8800     1.0
11.9700     0.0
12.0600     0.0
12.1500     1.0
12.2400     0.0
12.3300     0.0
12.4200     0.0
12.5100     0.0
12.6000     0.0
12.6900     0.0
12.7800     0.0
12.8700     0.0
12.9600     0.0
13.0500     0.0
13.1400     1.0
13.2300     1.0
13.3200     0.0
13.4100     0.0
13.5000     1.0
13.5900     0.0
13.6800     1.0
13.7700     1.0
13.8600     1.0
13.9500     0.0
14.0400     0.0
14.1300     1.0
14.2200     1.0
14.3100     1.0
14.4000     0.0
14.4900     0.0
14.5800     0.0
14.6700     0.0
14.7600     0.0
14.8500     0.0
14.9400     0.0
15.0300     2.0
15.1200     0.0
15.2100     0.0
15.3000     2.0
15.3900     0.0
15.4800     0.0
15.5700     1.0
15.6600     0.0
15.7500     0.0
15.8400     0.0
15.9300     0.0
16.0200     0.0
16.1100     0.0
16.2000     0.0
16.2900     1.0
16.3800     0.0
16.4700     0.0
16.5600     0.0
16.6500     0.0
16.7400     0.0
16.8300     0.0
16.9200     0.0
17.0100     0.0
17.1000     0.0
17.1900     0.0
17.2800     0.0
17.3700     1.0
17.4600     1.0
17.5500     1.0
17.6400     0.0
17.7300     0.0
17.8200     0.0
17.9100     0.0
18.0000     0.0
18.0900     1.0
18.1800     0.0
18.2700     0.0
18.3600     0.0
18.4500     0.0
18.5400     0.0
18.6300     0.0
18.7200     0.0
18.8100     0.0
18.9000     0.0
18.9900     1.0
19.0800     0.0
19.1700     0.0
19.2600     0.0
19.3500     0.0
19.4400     0.0
19.5300     0.0
19.6200     0.0
19.7100     1.0
19.8000     0.0
19.8900     0.0
19.9800     0.0
20.0700     0.0
20.1600     0.0
20.2500     1.0
20.3400     0.0
20.4300     0.0
20.5200     0.0
20.6100     0.0
20.7000     0.0
20.7900     0.0
20.8800     0.0
20.9700     0.0
21.0600     0.0
21.1500     0.0
21.2400     0.0
21.3300     0.0
21.4200     0.0
21.5100     0.0
21.6000     0.0
21.6900     0.0
21.7800     0.0
21.8700     0.0
21.9600     1.0
22.0500     0.0
22.1400     0.0
22.2300     0.0
22.3200     0.0
22.4100     0.0
22.5000     0.0
22.5900     0.0
22.6800     0.0
22.7700     0.0
22.8600     0.0
22.9500     0.0
23.0400     0.0
23.1300     0.0
23.2200     0.0
23.3100     1.0
23.4000     0.0
23.4900     0.0
23.5800     0.0
23.6700     0.0
23.7600     0.0
23.8500     0.0
23.9400     0.0
24.0300     0.0
24.1200     0.0
24.2100     0.0
24.3000     0.0
24.3900     0.0
24.4800     0.0
24.5700     0.0
24.6600     0.0
24.7500     0.0
24.8400     0.0
24.9300     0.0
25.0200     0.0
25.1100     0.0
25.2000     0.0
25.2900     0.0
25.3800     0.0
25.4700     0.0
25.5600     0.0
25.5900     0.0
#ENDOFDATA   :
#FORMAT      : EMSA/MAS Spectral Data File
#VERSION     : 1.0
#TITLE       : Dime Location 2(2)
#DATE        : 15-MAR-2017
#TIME        : 15:32: 0
#OWNER       :
#NPOINTS     : 2560.0
#NCOLUMNS    : 1.0
#XUNITS      : keV
#YUNITS      : Intensity
#DATATYPE    : XY
#XPERCHAN    : 0.0100
#OFFSET      : 0.0000
#CHOFFSET    :   0.0
#SIGNALTYPE  : EDS
#XLABEL      : X-Ray Energy
#YLABEL      : X-Ray Intensity
#BEAMKV   -kV:  25.0
#EMISSION -uA: 0.0000
#PROBECUR -nA: 1.2e+06
#BEAMDIAM -nm:   0.0
#MAGCAM      : 40000.0
#OPERMODE    : IMAG
#XTILTSTGE-dg: 0.000
#YTILTSTGE-dg: 0.000
#XPOSITION   : 0.000
#YPOSITION   : 20.100
#ZPOSITION   : 0.000
#ELEVANGLE-dg: 90.00
#AZIMANGLE-dg: 90.00
#SOLIDANGL-sR: 0.0222
#LIVETIME  -s: 100.0
#REALTIME  -s: 104.3
#THCWIND     : 3.00E-05
#TAUWIND  -cm: 2.00E-06
#TDEADLYR -cm: 1.00E-05
#EDSDET      : SILI
#COMMENT     : The following parameters are defined by Thermo Electron
##INSTRUMENT : NORAN System Six
##DETNAME    : Pioneer
##CONTAM     : 0.00E+00
##WORKDIST   :  5.00
##STAGEROT   : 0.000
##SLIDEPOS   : 0.000
##CRYSTMATL  : SiLi
##CRYSTAREA  : 10.000
##CRYSTTHICK : 3.000
##CONTMATL   : GOLD
##WINDCOAT   : ALUM
##WINDTHICK  : 0.030
##DEADTIME   : 4.270
##TIMECNSTNT :  64
##ZEROWIDTH  : 59.000
##ESCPKSREM  : 0
##ZEROPKSREM : 0
##SUMPKSREM  : 0
##ZEROCUTOFF : 0.000
##DETSUBTYPE : 2
##EXPONENT   : 0.000
##LOWEVADJ   : 0.000
##BEAMX      : -1.000
##BEAMY      : -1.000
##CHARGE     : 0.00E+00
##QUANT_DATE : Mon Mar 20 15:22:02 2017
##QUANT_CHI  : 58.855
##WDS_ANGLE  : -1.000
##FITTYPE    : 1
##MATRIXCORR : 1
##PEAKLAB    : 0.275000  C Ka  2
##PEAKLAB    : 0.924000  Cu La1  2
##PEAKLAB    : 8.008000  Cu Ka  2
##PEAKLAB    : 8.870000  Cu Kb1  2
##PEAKLAB    : 11.922  Br Ka1  2
##PEAKLAB    : 11.876  Br Ka2  2
##PEAKLAB    : 13.288  Br Kb1  2
##PEAKLAB    : 13.467  Br Kb2  2
##PEAKLAB    : 1.480000  Br La1  2
##PEAKLAB    : 1.526000  Br Lb1  2
##PEAKLAB    : 1.293000  Br Ll  2
##PEAKLAB    : 1.596000  Br Lb3  2
##PEAKLAB    : 1.339000  Br Ln  2
##PEAKLAB    : 0.155000  Br M3-N1  2
##PEAKLAB    : 0.161000  Br M2-N1  2
##QUANT_ATNUM: CK 6
##QUANT_LNTP : CK 1
##QUANT_SRC  : CK 1
##QUANT_NTCNT: CK 70
##QUANT_CTERR: CK 13
##QUANT_STD  : CK
##QUANT_CMPD : CK C
##QUANT_KRT  : CK 0.03759
##QUANT_KERR : CK 0.00709
##QUANT_FITC : CK 3.04619e-004
##QUANT_WTCON: CK 0.16739
##QUANT_ATCON: CK 0.51584
##QUANT_COCON: CK 0.16739
##QUANT_Z    : CK 0.78269
##QUANT_A    : CK 6.95458
##QUANT_F    : CK 0.99967
##QUANT_KFACT: CK 0.00000
##QUANT_CATS : CK 0.00000
##QUANT_FITC1: CK 0.00000e+000
##QUANT_FITC2: CK 0.00000e+000
##QUANT_FIT_G: CK 1.11656e-003
##QUANT_PMTR0: CK 9.33401e-001
##QUANT_PMTR1: CK 3.40468e+000
##QUANT_PMTR2: CK 0.00000e+000
##QUANT_PMTR3: CK 5.14453e+000
##QUANT_ATNUM: CuK 29
##QUANT_LNTP : CuK 1
##QUANT_SRC  : CuK 1
##QUANT_NTCNT: CuK 4686
##QUANT_CTERR: CuK 138
##QUANT_STD  : CuK
##QUANT_CMPD : CuK Cu
##QUANT_KRT  : CuK 0.95548
##QUANT_KERR : CuK 0.02824
##QUANT_FITC : CuK 6.27891e-003
##QUANT_WTCON: CuK 0.82596
##QUANT_ATCON: CuK 0.48108
##QUANT_COCON: CuK 0.82596
##QUANT_Z    : CuK 1.05868
##QUANT_A    : CuK 0.99812
##QUANT_F    : CuK 0.99952
##QUANT_KFACT: CuK 0.00000
##QUANT_CATS : CuK 0.00000
##QUANT_FITC1: CuK 2.29421e-003
##QUANT_FITC2: CuK 5.57973e-004
##QUANT_FIT_G: CuK 1.81056e-002
##QUANT_PMTR0: CuK 9.90908e-001
##QUANT_PMTR1: CuK 4.41369e+000
##QUANT_PMTR2: CuK 3.38876e-002
##QUANT_PMTR3: CuK 2.79182e+000
##QUANT_ATNUM: CuL 29
##QUANT_LNTP : CuL 2
##QUANT_SRC  : CuL 1
##QUANT_NTCNT: CuL 1612
##QUANT_CTERR: CuL 57
##QUANT_STD  : CuL
##QUANT_CMPD : CuL
##QUANT_KRT  : CuL 0.00000
##QUANT_KERR : CuL 0.00000
##QUANT_FITC : CuL 9.44020e-003
##QUANT_WTCON: CuL -1.00000
##QUANT_ATCON: CuL 0.00000
##QUANT_COCON: CuL 0.00000
##QUANT_Z    : CuL 0.00000
##QUANT_A    : CuL 0.00000
##QUANT_F    : CuL 0.00000
##QUANT_KFACT: CuL 0.00000
##QUANT_CATS : CuL 0.00000
##QUANT_FITC1: CuL 8.32775e-004
##QUANT_FITC2: CuL 1.22241e-003
##QUANT_FIT_G: CuL 1.15779e-002
##QUANT_PMTR0: CuL 9.33401e-001
##QUANT_PMTR1: CuL 3.40468e+000
##QUANT_PMTR2: CuL 0.00000e+000
##QUANT_PMTR3: CuL 5.14453e+000
##QUANT_ATNUM: BrK 35
##QUANT_LNTP : BrK 1
##QUANT_SRC  : BrK 1
##QUANT_NTCNT: BrK 9
##QUANT_CTERR: BrK 18
##QUANT_STD  : BrK
##QUANT_CMPD : BrK Br
##QUANT_KRT  : BrK 0.00693
##QUANT_KERR : BrK 0.00693
##QUANT_FITC : BrK 8.38454e-005
##QUANT_WTCON: BrK 0.00665
##QUANT_ATCON: BrK 0.00308
##QUANT_COCON: BrK 0.00665
##QUANT_Z    : BrK 1.13953
##QUANT_A    : BrK 1.02871
##QUANT_F    : BrK 1.00000
##QUANT_KFACT: BrK 0.00000
##QUANT_CATS : BrK 0.00000
##QUANT_FITC1: BrK 0.00000e+000
##QUANT_FITC2: BrK 0.00000e+000
##QUANT_FIT_G: BrK 3.61758e-006
##QUANT_PMTR0: BrK 9.90908e-001
##QUANT_PMTR1: BrK 4.41369e+000
##QUANT_PMTR2: BrK 3.38876e-002
##QUANT_PMTR3: BrK 2.79182e+000
##QUANT_ATNUM: BrL 35
##QUANT_LNTP : BrL 2
##QUANT_SRC  : BrL 1
##QUANT_NTCNT: BrL 53
##QUANT_CTERR: BrL 15
##QUANT_STD  : BrL
##QUANT_CMPD : BrL
##QUANT_KRT  : BrL 0.00000
##QUANT_KERR : BrL 0.00000
##QUANT_FITC : BrL 3.65513e-004
##QUANT_WTCON: BrL -1.00000
##QUANT_ATCON: BrL 0.00000
##QUANT_COCON: BrL 0.00000
##QUANT_Z    : BrL 0.00000
##QUANT_A    : BrL 0.00000
##QUANT_F    : BrL 0.00000
##QUANT_KFACT: BrL 0.00000
##QUANT_CATS : BrL 0.00000
##QUANT_FITC1: BrL 0.00000e+000
##QUANT_FITC2: BrL 0.00000e+000
##QUANT_FIT_G: BrL 1.93959e-004
##QUANT_PMTR0: BrL 9.90908e-001
##QUANT_PMTR1: BrL 4.41369e+000
[...]
15.8400     1.0
15.9300     0.0
16.0200     1.0
16.1100     0.0
16.2000     1.0
16.2900     0.0
16.3800     0.0
16.4700     0.0
16.5600     0.0
16.6500     1.0
16.7400     0.0
16.8300     0.0
16.9200     1.0
17.0100     1.0
17.1000     0.0
17.1900     0.0
17.2800     1.0
17.3700     0.0
17.4600     1.0
17.5500     0.0
17.6400     0.0
17.7300     1.0
17.8200     0.0
17.9100     0.0
18.0000     0.0
18.0900     2.0
18.1800     0.0
18.2700     0.0
18.3600     0.0
18.4500     0.0
18.5400     0.0
18.6300     0.0
18.7200     0.0
18.8100     0.0
18.9000     0.0
18.9900     1.0
19.0800     0.0
19.1700     0.0
19.2600     0.0
19.3500     0.0
19.4400     0.0
19.5300     0.0
19.6200     0.0
19.7100     0.0
19.8000     0.0
19.8900     0.0
19.9800     0.0
20.0700     0.0
20.1600     0.0
20.2500     0.0
20.3400     0.0
20.4300     0.0
20.5200     0.0
20.6100     0.0
20.7000     0.0
20.7900     0.0
20.8800     0.0
20.9700     0.0
21.0600     0.0
21.1500     0.0
21.2400     0.0
21.3300     0.0
21.4200     0.0
21.5100     0.0
21.6000     0.0
21.6900     0.0
21.7800     0.0
21.8700     0.0
21.9600     0.0
22.0500     0.0
22.1400     0.0
22.2300     0.0
22.3200     0.0
22.4100     0.0
22.5000     0.0
22.5900     0.0
22.6800     0.0
22.7700     0.0
22.8600     0.0
22.9500     0.0
23.0400     0.0
23.1300     0.0
23.2200     0.0
23.3100     0.0
23.4000     0.0
23.4900     0.0
23.5800     0.0
23.6700     0.0
23.7600     0.0
23.8500     0.0
23.9400     0.0
24.0300     0.0
24.1200     0.0
24.2100     0.0
24.3000     0.0
24.3900     0.0
24.4800     0.0
24.5700     0.0
24.6600     0.0
24.7500     0.0
24.8400     0.0
24.9300     0.0
25.0200     0.0
25.1100     0.0
25.2000     0.0
25.2900     0.0
25.3800     0.0
25.4700     0.0
25.5600     0.0
25.5900     0.0
#ENDOFDATA   :
#FORMAT      : EMSA/MAS Spectral Data File
#VERSION     : 1.0
#TITLE       : Object 4 Location 3(2)
#DATE        : 20-MAR-2017
#TIME        : 15:10:33
#OWNER       :
#NPOINTS     : 2560.0
#NCOLUMNS    : 1.0
#XUNITS      : keV
#YUNITS      : Intensity
#DATATYPE    : XY
#XPERCHAN    : 0.0100
#OFFSET      : 0.0000
#CHOFFSET    :   0.0
#SIGNALTYPE  : EDS
#XLABEL      : X-Ray Energy
#YLABEL      : X-Ray Intensity
#BEAMKV   -kV:  25.0
#EMISSION -uA: 0.0000
#PROBECUR -nA: 1.2e+06
#BEAMDIAM -nm:   0.0
#MAGCAM      : 100.0
#OPERMODE    : IMAG
#XTILTSTGE-dg: 0.000
#YTILTSTGE-dg: 0.000
#XPOSITION   : 0.000
#YPOSITION   : 20.100
#ZPOSITION   : 0.000
#ELEVANGLE-dg: 90.00
#AZIMANGLE-dg: 90.00
#SOLIDANGL-sR: 0.0222
#LIVETIME  -s: 100.0
#REALTIME  -s: 102.5
#THCWIND     : 3.00E-05
#TAUWIND  -cm: 2.00E-06
#TDEADLYR -cm: 1.00E-05
#EDSDET      : SIUTW
#COMMENT     : The following parameters are defined by Thermo Electron
##INSTRUMENT : NORAN System Six
##DETNAME    : Pioneer
##CONTAM     : 0.00E+00
##WORKDIST   :  5.00
##STAGEROT   : 0.000
##SLIDEPOS   : 0.000
##CRYSTMATL  : SiLi
##CRYSTAREA  : 10.000
##CRYSTTHICK : 3.000
##CONTMATL   : GOLD
##WINDCOAT   : ALUM
##WINDTHICK  : 0.030
##DEADTIME   : 2.547
##TIMECNSTNT :  64
##ZEROWIDTH  : 58.000
##ESCPKSREM  : 0
##ZEROPKSREM : 0
##SUMPKSREM  : 0
##ZEROCUTOFF : 0.000
##DETSUBTYPE : 2
##EXPONENT   : 0.000
##LOWEVADJ   : 0.000
##BEAMX      : -1.000
##BEAMY      : -1.000
##CHARGE     : 0.00E+00
##QUANT_DATE :
##QUANT_CHI  : 0.000
##WDS_ANGLE  : 0.000
##FITTYPE    : 0
##MATRIXCORR : 0
##PEAKLAB    : 0.517000  O Ka  2
##PEAKLAB    : 0.704000  Fe La1  2
##PEAKLAB    : 1.030000  Zn La1  2
##PEAKLAB    : 1.244000  Mg Ka  2
##PEAKLAB    : 1.755000  Si Ka  2
##PEAKLAB    : 2.123000  Au Ma1  1
##PEAKLAB    : 3.686000  Ca Ka  2
##PEAKLAB    : 5.888000  Mn Ka  2
##PEAKLAB    : 6.386000  Fe Ka  2
##PEAKLAB    : 7.017000  Fe Kb1  2
##PEAKLAB    : 7.430000  Ni Ka1  2
##PEAKLAB    : 8.011000  Cu Ka  2
##PEAKLAB    : 8.584000  Zn Ka1  2
##PEAKLAB    : 9.511000  Zn Kb1  2
##PEAKLAB    : 11.922  Br Ka1  2
##PEAKLAB    : 11.876  Br Ka2  2
##PEAKLAB    : 13.288  Br Kb1  2
##PEAKLAB    : 13.467  Br Kb2  2
##PEAKLAB    : 1.480000  Br La1  2
##PEAKLAB    : 1.526000  Br Lb1  2
##PEAKLAB    : 1.293000  Br Ll  2
##PEAKLAB    : 1.596000  Br Lb3  2
##PEAKLAB    : 1.339000  Br Ln  2
##PEAKLAB    : 0.155000  Br M3-N1  2
##PEAKLAB    : 0.161000  Br M2-N1  2
#SPECTRUM    :
0.0000     0.0
0.0900    51.0
0.1800     0.0
0.2700     5.0
0.3600     2.0
0.4500     0.0
0.5400    10.0
0.6300     2.0
0.7200     3.0
0.8100     1.0
0.9000     2.0
0.9900     5.0
1.0800     3.0
1.1700     2.0
1.2600     3.0
1.3500     0.0
1.4400     5.0
1.5300     5.0
1.6200     1.0
1.7100     4.0
1.8000     1.0
1.8900     1.0
1.9800     1.0
2.0700     2.0
2.1600     4.0
2.2500     4.0
2.3400     2.0
2.4300     1.0
2.5200     2.0
2.6100     3.0
2.7000     2.0
2.7900     0.0
2.8800     3.0
2.9700     1.0
3.0600     0.0
3.1500     2.0
3.2400     0.0
3.3300     0.0
3.4200     1.0
3.5100     1.0
3.6000     3.0
3.6900    11.0
3.7800     4.0
3.8700     4.0
3.9600     1.0
4.0500     4.0
4.1400     3.0
4.2300     2.0
4.3200     2.0
4.4100     1.0
4.5000     1.0
4.5900     2.0
4.6800     4.0
4.7700     1.0
4.8600     0.0
4.9500     1.0
5.0400     0.0
5.1300     0.0
5.2200     2.0
5.3100     2.0
5.4000     2.0
5.4900     0.0
5.5800     3.0
5.6700     2.0
5.7600     2.0
5.8500    14.0
5.9400     6.0
6.0300     2.0
6.1200     2.0
6.2100     2.0
6.3000    34.0
6.3900    86.0
6.4800    25.0
6.5700     3.0
6.6600     2.0
6.7500     2.0
6.8400     1.0
6.9300     1.0
7.0200    15.0
7.1100     7.0
7.2000     1.0
7.2900     0.0
7.3800     6.0
7.4700     3.0
7.5600     5.0
7.6500     3.0
7.7400     0.0
7.8300     2.0
7.9200     9.0
8.0100    32.0
8.1000     5.0
8.1900     0.0
8.2800     3.0
8.3700     1.0
8.4600     2.0
8.5500    14.0
8.6400    16.0
8.7300     3.0
8.8200     2.0
8.9100     7.0
9.0000     0.0
9.0900     0.0
9.1800     0.0
9.2700     1.0
9.3600     0.0
9.4500     2.0
9.5400     2.0
9.6300     0.0
9.7200     1.0
9.8100     0.0
9.9000     1.0
9.9900     0.0
10.0800     0.0
10.1700     0.0
10.2600     0.0
10.3500     1.0
10.4400     0.0
10.5300     0.0
10.6200     0.0
10.7100     0.0
10.8000     0.0
10.8900     3.0
10.9800     1.0
11.0700     0.0
11.1600     0.0
11.2500     0.0
11.3400     0.0
11.4300     0.0
11.5200     0.0
11.6100     1.0
11.7000     0.0
11.7900     0.0
11.8800     0.0
11.9700     0.0
12.0600     1.0
12.1500     0.0
12.2400     0.0
12.3300     1.0
12.4200     0.0
12.5100     0.0
12.6000     0.0
12.6900     1.0
12.7800     0.0
12.8700     1.0
12.9600     0.0
13.0500     0.0
13.1400     1.0
13.2300     1.0
13.3200     0.0
13.4100     1.0
13.5000     0.0
13.5900     0.0
13.6800     1.0
13.7700     0.0
13.8600     0.0
13.9500     1.0
14.0400     1.0
14.1300     0.0
14.2200     0.0
14.3100     0.0
14.4000     0.0
14.4900     0.0
14.5800     0.0
14.6700     1.0
14.7600     0.0
14.8500     0.0
14.9400     0.0
15.0300     0.0
15.1200     0.0
15.2100     0.0
15.3000     0.0
15.3900     1.0
15.4800     0.0
15.5700     1.0
15.6600     0.0
15.7500     0.0
15.8400     0.0
15.9300     1.0
16.0200     1.0
16.1100     0.0
16.2000     0.0
16.2900     0.0
16.3800     0.0
16.4700     1.0
16.5600     0.0
16.6500     0.0
16.7400     1.0
16.8300     0.0
16.9200     0.0
17.0100     1.0
17.1000     0.0
17.1900     2.0
17.2800     1.0
17.3700     0.0
17.4600     0.0
17.5500     0.0
17.6400     0.0
17.7300     0.0
17.8200     0.0
17.9100     0.0
18.0000     1.0
18.0900     0.0
18.1800     0.0
18.2700     0.0
18.3600     0.0
18.4500     0.0
18.5400     0.0
18.6300     0.0
18.7200     0.0
18.8100     0.0
18.9000     2.0
18.9900     0.0
19.0800     0.0
19.1700     0.0
19.2600     0.0
19.3500     0.0
19.4400     0.0
19.5300     0.0
19.6200     1.0
19.7100     0.0
19.8000     0.0
19.8900     0.0
19.9800     0.0
20.0700     0.0
20.1600     0.0
20.2500     0.0
20.3400     0.0
20.4300     0.0
20.5200     0.0
20.6100     0.0
20.7000     1.0
20.7900     0.0
20.8800     0.0
20.9700     0.0
21.0600     0.0
21.1500     0.0
21.2400     0.0
21.3300     0.0
21.4200     0.0
21.5100     0.0
21.6000     1.0
21.6900     0.0
21.7800     0.0
21.8700     0.0
21.9600     0.0
22.0500     0.0
22.1400     0.0
22.2300     0.0
22.3200     0.0
22.4100     0.0
22.5000     0.0
22.5900     0.0
22.6800     0.0
22.7700     0.0
22.8600     0.0
22.9500     0.0
23.0400     0.0
23.1300     0.0
23.2200     0.0
23.3100     0.0
23.4000     0.0
23.4900     0.0
23.5800     0.0
23.6700     0.0
23.7600     1.0
23.8500     0.0
23.9400     0.0
24.0300     0.0
24.1200     0.0
24.2100     0.0
24.3000     0.0
24.3900     0.0
24.4800     0.0
24.5700     0.0
24.6600     0.0
24.7500     0.0
24.8400     0.0
24.9300     0.0
25.0200     0.0
25.1100     0.0
25.2000     0.0
25.2900     0.0
25.3800     0.0
25.4700     0.0
25.5600     0.0
25.5900     0.0
#ENDOFDATA   :